<Bundle xmlns="http://hl7.org/fhir">
   <entry>
      <resource>
         <ReferralRequest xmlns="http://hl7.org/fhir">
            <id value="000000090007"/>
            <meta>
               <versionId value="7"/>
               <profile value="http://fhir.nhs.net/StructureDefinition/ers-referralrequest-1"/>
            </meta>
            <contained>
               <Appointment xmlns="http://hl7.org/fhir">
                  <id value="appointment"/>
                  <meta>
                     <profile value="http://fhir.nhs.net/StructureDefinition/ers-appointment-1"/>
                  </meta>
                  <status value="booked"/>
                  <start value="2017-05-05T15:30:00.000Z"/>
                  <end value="2017-05-05T16:00:00.000Z"/>
                  <participant>
                     <actor>
                        <reference value="HealthcareService/90000"/>
                        <display value="API_Test"/>
                     </actor>
                     <status value="accepted"/>
                  </participant>
               </Appointment>
            </contained>
            <extension url="http://fhir.nhs.net/StructureDefinition/extension-ers-appointment-1">
               <valueReference>
                  <reference value="#appointment"/>
               </valueReference>
            </extension>
            <extension url="http://fhir.nhs.net/StructureDefinition/extension-ers-clinicalinfofirstsubmitted-1">
               <valueDateTime value="2016-12-12T20:23:07.288Z"/>
            </extension>
            <status value="active"/>
            <specialty>
               <coding>
                  <system value="http://fhir.nhs.net/ValueSet/ers-specialty-1"/>
                  <code value="2WW"/>
               </coding>
            </specialty>
            <priority>
               <coding>
                  <system value="http://fhir.nhs.net/ValueSet/ers-priority-1"/>
                  <code value="TWO_WEEK_WAIT"/>
               </coding>
            </priority>
            <patient>
               <reference value="Patient/1000000001"/>
            </patient>
            <supportingInformation>
               <reference value="DocumentReference/doc-2"/>
            </supportingInformation>
         </ReferralRequest>
      </resource>
   </entry>
   <entry>
      <resource>
         <DocumentReference xmlns="http://hl7.org/fhir">
            <id value="doc-1"/>
            <identifier>
               <system value="http://fhir.nhs.net/ValueSet/ers/Binary"/>
               <value value="UBRN-000000090007"/>
            </identifier>
            <subject>
               <reference value="Patient/1000000001"/>
            </subject>
            <type>
               <coding>
                  <system value="http://snomed.info/sct"/>
                  <code value="25611000000107"/>
                  <display value="Referral letter"/>
               </coding>
            </type>
            <description value="Clinical Referral Information"/>
            <content>
               <attachment>
                  <contentType value="application/pdf"/>
                  <url value="Binary/doc-1"/>
                  <title value="000000090007-ReferralCRI.pdf"/>
               </attachment>
            </content>
         </DocumentReference>
      </resource>
   </entry>
   <entry>
      <resource>
         <DocumentReference xmlns="http://hl7.org/fhir">
            <id value="doc-2"/>
            <meta>
               <profile value="http://fhir.nhs.net/StructureDefinition/ers-documentreference-1"/>
            </meta>
            <identifier>
               <system value="http://fhir.nhs.net/ValueSet/ers/Binary"/>
               <value value="att-91953-90040"/>
            </identifier>
            <subject>
               <reference value="Patient/1000000001"/>
            </subject>
            <type>
               <coding>
                  <system value="http://fhir.nhs.net/ValueSet/ers-attachmenttype-1"/>
                  <code value="REFERRER"/>
               </coding>
            </type>
            <created value="2016-12-12T00:00:00+00:00"/>
            <indexed value="2017-03-16T14:06:57.597Z"/>
            <status value="current"/>
            <content>
               <attachment id="90040">
                  <extension url="http://fhir.nhs.net/StructureDefinition/extension-ers-attachedby-1">
                     <valueReference>
                        <reference value="Practitioner/021600556514"/>
                     </valueReference>
                  </extension>
                  <contentType value="application/vnd.openxmlformats-officedocument.wordprocessingml.document"/>
                  <url value="Binary/doc-2"/>
                  <size value="12671"/>
                  <title value="Test Attachment 1.docx"/>
                  <creation value="2016-12-12"/>
               </attachment>
            </content>
         </DocumentReference>
      </resource>
   </entry>
   <entry>
      <resource>
         <Binary xmlns="http://hl7.org/fhir">
            <id value="doc-1"/>
            <contentType value="application/pdf"/>
            <content value=""/>
         </Binary>
      </resource>
   </entry>
   <entry>
      <resource>
         <Binary xmlns="http://hl7.org/fhir">
            <id value="doc-2"/>
            <contentType value="text/html;charset=utf-8"/>
            <content value=""/>
         </Binary>
      </resource>
   </entry>
</Bundle>